trialnr	response	juist	reactiontime
1	5	0	144
2	2	0	235
3	1	0	146
4	2	0	219
5	1	1	155
6	2	2	193
7	1	2	155
8	2	2	160
9	1	2	137
10	2	2	156
11	1	2	143
12	2	2	144
13	2	2	258
14	1	3	139
15	2	3	172
16	1	3	145
17	2	3	148
18	1	3	167
19	2	3	136
20	1	3	124
21	2	3	162
22	2	3	187
23	1	3	165
24	2	3	131
